Freq,Impedance,Phase
1.029,9.053,2.653    
1.059,9.053,2.653    
1.091,9.053,2.653    
1.122,9.053,2.653    
1.155,9.053,2.653    
1.189,9.053,2.653    
1.224,9.053,2.653    
1.260,9.053,2.653    
1.297,9.053,2.653    
1.335,9.052,2.778    
1.374,9.052,2.778    
1.414,9.052,2.778    
1.456,9.052,2.778    
1.498,9.052,2.778    
1.542,9.052,2.778    
1.587,9.052,2.778    
1.634,9.052,2.778    
1.682,9.048,2.913    
1.731,9.048,2.913    
1.782,9.048,2.913    
1.834,9.048,2.913    
1.888,9.048,2.913    
1.943,9.048,2.913    
2.000,9.056,3.079    
2.059,9.056,3.079    
2.119,9.056,3.079    
2.181,9.056,3.079    
2.245,9.056,3.079    
2.311,9.056,3.079    
2.378,9.067,3.316    
2.448,9.067,3.316    
2.520,9.067,3.316    
2.594,9.067,3.316    
2.670,9.077,3.631    
2.748,9.077,3.631    
2.828,9.077,3.631    
2.911,9.077,3.631    
2.997,9.086,3.997    
3.084,9.086,3.997    
3.175,9.086,3.997    
3.268,9.086,3.997    
3.364,9.104,4.382    
3.462,9.104,4.382    
3.564,9.104,4.382    
3.668,9.131,4.774    
3.775,9.131,4.774    
3.886,9.131,4.774    
4.000,9.166,5.177    
4.117,9.166,5.177    
4.238,9.166,5.177    
4.362,9.192,5.578    
4.490,9.192,5.578    
4.621,9.192,5.578    
4.757,9.224,5.961    
4.896,9.224,5.961    
5.040,9.257,6.323    
5.187,9.257,6.323    
5.339,9.293,6.658    
5.496,9.293,6.658    
5.657,9.330,6.973    
5.823,9.330,6.973    
5.993,9.362,7.278    
6.169,9.362,7.278    
6.350,9.395,7.571    
6.536,9.395,7.571    
6.727,9.431,7.857    
6.924,9.431,7.857    
7.127,9.472,8.140    
7.336,9.517,8.414    
7.551,9.517,8.414    
7.772,9.561,8.679    
8.000,9.604,8.931    
8.234,9.604,8.931    
8.476,9.648,9.169    
8.724,9.694,9.395    
8.980,9.744,9.610    
9.243,9.744,9.610    
9.514,9.798,9.821    
9.792,9.854,10.035    
10.079,9.908,10.247    
10.375,9.958,10.449    
10.679,10.007,10.641    
10.992,10.056,10.826    
11.314,10.103,11.003    
11.645,10.152,11.168    
11.986,10.206,11.317    
12.338,10.259,11.454    
12.699,10.309,11.578    
13.071,10.357,11.683    
13.454,10.406,11.770    
13.849,10.458,11.842    
14.254,10.511,11.903    
14.672,10.591,11.985    
15.102,10.672,12.062    
15.545,10.729,12.110    
16.000,10.820,12.187    
16.469,10.912,12.274    
16.951,10.999,12.355    
17.448,11.085,12.434    
17.959,11.161,12.525    
18.486,11.232,12.607    
19.027,11.302,12.680    
19.585,11.389,12.767    
20.159,11.449,12.807    
20.749,11.502,12.820    
21.357,11.566,12.801    
21.983,11.624,12.741    
22.627,11.673,12.643    
23.290,11.728,12.506    
23.973,11.787,12.315    
24.675,11.846,12.078    
25.398,11.916,11.815    
26.143,11.989,11.559    
26.909,12.096,11.291    
27.697,12.216,11.096    
28.509,12.303,10.994    
29.344,12.395,10.925    
30.204,12.473,10.884    
31.089,12.513,10.851    
32.000,12.538,10.769    
32.938,12.557,10.589    
33.903,12.579,10.299    
34.896,12.609,9.949    
35.919,12.653,9.616    
36.971,12.707,9.340    
38.055,12.764,9.125    
39.170,12.829,8.955    
40.317,12.875,8.876    
41.499,12.882,8.865    
42.715,12.861,8.823    
43.967,12.828,8.588    
45.255,12.828,8.085    
46.581,12.903,7.660    
47.946,13.022,7.566    
49.351,13.106,7.776    
50.797,13.074,8.109    
52.285,12.982,8.108    
53.817,12.922,7.696    
55.394,12.927,7.120    
57.018,13.007,6.988    
58.688,13.141,7.254    
60.408,13.247,7.714    
62.178,13.251,7.983    
64.000,13.284,7.596    
65.875,13.334,6.044    
67.806,13.334,5.689    
69.792,13.319,6.180    
71.838,13.145,6.155    
73.943,13.008,5.617    
76.109,13.064,5.590    
78.339,13.145,6.302    
80.635,13.043,7.178    
82.998,12.899,7.165    
85.430,13.074,6.736    
87.933,13.362,7.380    
90.510,13.332,7.617    
93.162,13.163,6.745    
95.892,13.188,6.771    
98.701,13.140,7.961    
101.594,12.991,8.453    
104.571,13.150,8.445    
107.635,13.340,10.095    
110.789,13.221,10.614    
114.035,13.438,10.573    
117.377,13.666,12.012    
120.816,13.691,12.624    
124.356,14.090,13.117    
128.000,14.314,14.806    
131.751,14.672,14.836    
135.611,15.310,16.069    
139.585,15.705,16.789    
143.675,16.698,17.162    
147.885,17.466,17.711    
152.219,18.807,16.635    
156.679,20.133,15.618    
161.270,21.720,12.529    
165.995,23.143,9.415    
170.860,24.597,3.414    
175.866,24.521,-1.913    
181.019,25.023,-5.857    
186.324,25.407,-11.515    
191.783,25.088,-18.711    
197.403,23.410,-25.585    
203.187,21.426,-30.015    
209.141,19.396,-32.837    
215.269,17.594,-34.022    
221.577,16.231,-34.478    
228.070,14.978,-34.274    
234.753,14.007,-33.321    
241.632,13.190,-32.114    
248.712,12.539,-30.546    
256.000,12.023,-29.004    
263.501,11.600,-27.345    
271.223,11.254,-25.805    
279.170,10.976,-24.226    
287.350,10.743,-22.867    
295.770,10.513,-21.387    
304.437,10.349,-19.973    
313.358,10.202,-18.659    
322.540,10.075,-17.323    
331.991,9.980,-16.099    
341.719,9.892,-14.912    
351.732,9.819,-13.776    
362.039,9.766,-12.699    
372.647,9.716,-11.670    
383.567,9.687,-10.723    
394.806,9.653,-9.785    
406.375,9.631,-8.925    
418.282,9.603,-8.073    
430.539,9.589,-7.238    
443.155,9.582,-6.473    
456.140,9.566,-5.783    
469.506,9.546,-5.069    
483.264,9.529,-4.290    
497.424,9.524,-3.501    
512.000,9.528,-2.764    
527.003,9.536,-2.034    
542.445,9.546,-1.291    
558.340,9.570,-0.560    
574.701,9.605,0.081    
591.541,9.642,0.640    
608.874,9.676,1.133    
626.715,9.710,1.508    
645.080,9.709,1.842    
663.982,9.676,2.265    
683.438,9.644,2.947    
703.464,9.638,3.734    
724.077,9.650,4.547    
745.294,9.675,5.350    
767.133,9.716,6.169    
789.612,9.768,6.964    
812.749,9.832,7.769    
836.565,9.912,8.573    
861.078,10.012,9.410    
886.309,10.146,10.247    
912.280,10.335,11.043    
939.012,10.609,11.606    
966.527,10.966,11.508    
994.849,11.346,10.223    
1024.000,11.421,7.319    
1054.005,10.903,5.096    
1084.890,10.337,6.308    
1116.680,10.214,8.329    
1149.401,10.220,9.693    
1183.081,10.263,10.800    
1217.748,10.314,11.755    
1253.431,10.390,12.721    
1290.159,10.489,13.512    
1327.964,10.588,14.313    
1366.876,10.727,15.065    
1406.929,10.875,15.589    
1448.155,11.028,16.167    
1490.589,11.231,16.599    
1534.266,11.460,16.677    
1579.224,11.669,16.268    
1625.499,11.785,15.706    
1673.129,11.853,14.912    
1722.156,11.740,14.147    
1772.619,11.543,14.208    
1824.561,11.431,14.907    
1878.024,11.408,15.680    
1933.055,11.420,16.280    
1989.697,11.412,16.900    
2048.000,11.433,17.735    
2108.011,11.475,18.476    
2169.780,11.543,19.242    
2233.360,11.624,19.964    
2298.802,11.729,20.538    
2366.162,11.784,21.206    
2435.496,11.898,22.031    
2506.862,12.054,22.829    
2580.318,12.345,23.261    
2655.927,12.331,22.353    
2733.752,12.254,23.726    
2813.857,12.416,24.791    
2896.309,12.617,25.589    
2981.178,12.872,26.292    
3068.533,13.188,26.595    
3158.448,13.494,26.567    
3250.997,13.645,24.833    
3346.259,13.373,25.705    
3444.312,13.635,26.091    
3545.238,13.589,26.134    
3649.121,13.607,26.570    
3756.049,13.632,27.500    
3866.109,13.780,28.460    
3979.395,14.017,29.207    
4096.000,14.239,29.335    
4216.022,14.344,29.711    
4339.561,14.519,30.253    
4466.720,14.672,30.694    
4597.605,14.896,31.272    
4732.325,15.162,31.299    
4870.992,15.294,31.484    
5013.723,15.426,31.494    
5160.637,15.485,31.887    
5311.855,15.616,32.386    
5467.504,15.739,32.980    
5627.714,15.925,33.525    
5792.619,16.105,34.079    
5962.355,16.298,34.591    
6137.066,16.546,35.214    
6316.896,16.793,35.509    
6501.995,17.005,35.922    
6692.518,17.247,36.270    
6888.623,17.434,36.535    
7090.476,17.628,37.124    
7298.242,17.908,37.563    
7512.097,18.138,37.913    
7732.218,18.378,38.384    
7958.790,18.639,38.835    
8192.000,18.917,39.342    
8432.044,19.247,39.772    
8679.122,19.576,40.039    
8933.439,19.857,40.281    
9195.209,20.130,40.628    
9464.649,20.430,41.022    
9741.985,20.761,41.386    
10027.447,21.091,41.664    
10321.273,21.407,41.927    
10623.710,21.715,42.253    
10935.008,22.051,42.605    
11255.428,22.410,42.936    
11585.238,22.777,43.220    
11924.711,23.133,43.488    
12274.132,23.494,43.805    
12633.791,23.887,44.072    
13003.989,24.258,44.356    
13385.035,24.650,44.646    
13777.247,25.048,44.925    
14180.951,25.457,45.214    
14596.485,25.880,45.492    
15024.194,26.320,45.753    
15464.437,26.768,46.000    
15917.579,27.221,46.229    
16384.000,27.682,46.459    
16864.088,28.150,46.680    
17358.243,28.613,46.894    
17866.879,29.069,47.102    
18390.418,29.513,47.310    
18929.299,29.950,47.496    
19483.969,30.368,47.690    
20054.893,30.757,47.896    
20642.546,31.088,48.145    
