Freq,Impedance,Phase
1.029,7.714,2.656
1.059,7.714,2.656
1.091,7.714,2.656
1.122,7.714,2.656
1.155,7.714,2.656
1.189,7.714,2.656
1.224,7.714,2.656
1.260,7.714,2.656
1.297,7.714,2.656
1.335,7.710,2.826
1.374,7.710,2.826
1.414,7.710,2.826
1.456,7.710,2.826
1.498,7.710,2.826
1.542,7.710,2.826
1.587,7.710,2.826
1.634,7.710,2.826
1.682,7.708,3.045
1.731,7.708,3.045
1.782,7.708,3.045
1.834,7.708,3.045
1.888,7.708,3.045
1.943,7.708,3.045
2.000,7.703,3.354
2.059,7.703,3.354
2.119,7.703,3.354
2.181,7.703,3.354
2.245,7.703,3.354
2.311,7.703,3.354
2.378,7.707,3.694
2.448,7.707,3.694
2.520,7.707,3.694
2.594,7.707,3.694
2.670,7.708,4.106
2.748,7.708,4.106
2.828,7.708,4.106
2.911,7.708,4.106
2.997,7.717,4.499
3.084,7.717,4.499
3.175,7.717,4.499
3.268,7.717,4.499
3.364,7.736,4.925
3.462,7.736,4.925
3.564,7.736,4.925
3.668,7.758,5.342
3.775,7.758,5.342
3.886,7.758,5.342
4.000,7.784,5.733
4.117,7.784,5.733
4.238,7.784,5.733
4.362,7.793,6.138
4.490,7.793,6.138
4.621,7.793,6.138
4.757,7.794,6.557
4.896,7.794,6.557
5.040,7.782,7.002
5.187,7.782,7.002
5.339,7.768,7.480
5.496,7.768,7.480
5.657,7.763,7.991
5.823,7.763,7.991
5.993,7.769,8.537
6.169,7.769,8.537
6.350,7.792,9.097
6.536,7.792,9.097
6.727,7.828,9.648
6.924,7.828,9.648
7.127,7.872,10.179
7.336,7.921,10.669
7.551,7.921,10.669
7.772,7.973,11.112
8.000,8.027,11.500
8.234,8.027,11.500
8.476,8.083,11.837
8.724,8.136,12.141
8.980,8.182,12.429
9.243,8.182,12.429
9.514,8.221,12.719
9.792,8.251,13.028
10.079,8.274,13.371
10.375,8.290,13.758
10.679,8.305,14.199
10.992,8.320,14.690
11.314,8.340,15.228
11.645,8.369,15.800
11.986,8.411,16.401
12.338,8.462,17.026
12.699,8.522,17.659
13.071,8.589,18.282
13.454,8.666,18.891
13.849,8.754,19.483
14.254,8.851,20.052
14.672,9.015,20.847
15.102,9.184,21.597
15.545,9.293,22.080
16.000,9.453,22.787
16.469,9.608,23.500
16.951,9.751,24.256
17.448,9.884,25.061
17.959,10.006,25.958
18.486,10.122,26.936
19.027,10.252,28.012
19.585,10.461,29.556
20.159,10.654,30.750
20.749,10.904,31.938
21.357,11.326,33.425
21.983,11.870,34.685
22.627,12.536,35.617
23.290,13.340,36.129
23.973,14.276,36.166
24.675,15.350,35.714
25.398,16.556,34.786
26.143,17.886,33.394
26.909,19.701,31.012
27.697,21.624,27.992
28.509,23.195,25.048
29.344,25.119,20.680
30.204,27.226,14.469
31.089,28.648,8.517
32.000,29.584,1.441
32.938,29.777,-6.501
33.903,28.977,-14.853
34.896,27.140,-22.416
35.919,24.598,-28.418
36.971,21.893,-32.440
38.055,19.510,-34.683
39.170,17.393,-35.920
40.317,15.800,-36.621
41.499,14.623,-37.140
42.715,13.729,-37.551
43.967,13.096,-37.828
45.255,12.594,-37.590
46.581,12.224,-36.600
47.946,11.870,-34.980
49.351,11.477,-33.077
50.797,10.980,-31.229
52.285,10.510,-29.819
53.817,10.120,-28.698
55.394,9.748,-27.684
57.018,9.458,-27.063
58.688,9.217,-26.747
60.408,9.033,-26.672
62.178,8.984,-26.462
64.000,9.013,-25.736
65.875,9.028,-24.239
67.806,8.952,-22.308
69.792,8.773,-20.708
71.838,8.595,-19.780
73.943,8.481,-19.186
76.109,8.413,-18.512
78.339,8.373,-17.638
80.635,8.326,-16.702
82.998,8.287,-15.972
85.430,8.246,-15.001
87.933,8.157,-14.011
90.510,8.077,-13.495
93.162,8.057,-13.064
95.892,8.061,-12.447
98.701,8.060,-11.681
101.594,8.025,-10.928
104.571,7.977,-10.366
107.635,7.970,-9.858
110.789,7.965,-9.067
114.035,7.909,-8.405
117.377,7.887,-8.126
120.816,7.906,-7.609
124.356,7.897,-6.900
128.000,7.876,-6.434
131.751,7.878,-5.852
135.611,7.867,-5.345
139.585,7.871,-4.855
143.675,7.868,-4.292
147.885,7.868,-3.919
152.219,7.888,-3.408
156.679,7.887,-2.977
161.270,7.893,-2.585
165.995,7.902,-2.195
170.860,7.908,-1.782
175.866,7.904,-1.441
181.019,7.906,-1.056
186.324,7.908,-0.627
191.783,7.912,-0.266
197.403,7.914,0.175
203.187,7.918,0.594
209.141,7.932,1.023
215.269,7.946,1.426
221.577,7.963,1.800
228.070,7.967,2.168
234.753,7.975,2.582
241.632,7.992,3.000
248.712,8.005,3.356
256.000,8.023,3.792
263.501,8.041,4.174
271.223,8.057,4.611
279.170,8.083,5.027
287.350,8.107,5.429
295.770,8.130,5.844
304.437,8.154,6.258
313.358,8.184,6.717
322.540,8.217,7.171
331.991,8.257,7.633
341.719,8.301,8.077
351.732,8.350,8.545
362.039,8.409,8.987
372.647,8.474,9.411
383.567,8.540,9.816
394.806,8.614,10.209
406.375,8.698,10.618
418.282,8.795,10.963
430.539,8.906,11.238
443.155,9.019,11.427
456.140,9.148,11.571
469.506,9.287,11.555
483.264,9.431,11.334
497.424,9.565,10.915
512.000,9.674,10.294
527.003,9.738,9.497
542.445,9.744,8.682
558.340,9.691,8.011
574.701,9.600,7.661
591.541,9.510,7.590
608.874,9.426,7.805
626.715,9.380,8.256
645.080,9.387,8.789
663.982,9.446,9.160
683.438,9.517,9.217
703.464,9.564,9.020
724.077,9.568,8.716
745.294,9.532,8.516
767.133,9.483,8.450
789.612,9.426,8.493
812.749,9.360,8.650
836.565,9.288,8.973
861.078,9.222,9.480
886.309,9.184,10.231
912.280,9.198,10.926
939.012,9.230,11.552
966.527,9.287,12.062
994.849,9.342,12.285
1024.000,9.353,12.423
1054.005,9.341,12.643
1084.890,9.309,13.008
1116.680,9.276,13.591
1149.401,9.263,14.347
1183.081,9.280,15.216
1217.748,9.319,16.062
1253.431,9.388,16.973
1290.159,9.496,17.831
1327.964,9.622,18.461
1366.876,9.757,19.034
1406.929,9.918,19.370
1448.155,10.047,19.545
1490.589,10.190,19.589
1534.266,10.274,19.450
1579.224,10.348,19.430
1625.499,10.375,19.413
1673.129,10.426,19.705
1722.156,10.497,19.703
1772.619,10.495,19.719
1824.561,10.493,20.033
1878.024,10.496,20.440
1933.055,10.525,20.930
1989.697,10.550,21.467
2048.000,10.600,22.035
2108.011,10.655,22.645
2169.780,10.724,23.192
2233.360,10.800,23.820
2298.802,10.876,24.408
2366.162,10.972,25.003
2435.496,11.074,25.663
2506.862,11.191,26.262
2580.318,11.324,26.856
2655.927,11.469,27.410
2733.752,11.617,27.900
2813.857,11.769,28.390
2896.309,11.949,28.875
2981.178,12.147,29.255
3068.533,12.363,29.475
3158.448,12.551,29.391
3250.997,12.669,29.361
3346.259,12.790,29.448
3444.312,12.884,29.523
3545.238,12.955,29.805
3649.121,13.071,30.260
3756.049,13.225,30.626
3866.109,13.377,30.821
3979.395,13.492,31.001
4096.000,13.603,31.338
4216.022,13.725,31.652
4339.561,13.838,32.122
4466.720,14.018,32.724
4597.605,14.276,33.056
4732.325,14.534,33.030
4870.992,14.717,32.527
5013.723,14.659,32.118
5160.637,14.559,32.592
5311.855,14.575,33.526
5467.504,14.709,34.441
5627.714,14.874,35.203
5792.619,15.068,35.931
5962.355,15.291,36.569
6137.066,15.524,37.092
6316.896,15.726,37.539
6501.995,15.941,38.111
6692.518,16.187,38.606
6888.623,16.435,39.068
7090.476,16.662,39.495
7298.242,16.913,40.014
7512.097,17.184,40.499
7732.218,17.471,40.964
7958.790,17.760,41.372
8192.000,18.070,41.810
8432.044,18.404,42.131
8679.122,18.709,42.371
8933.439,18.994,42.691
9195.209,19.308,43.076
9464.649,19.649,43.383
9741.985,19.985,43.645
10027.447,20.317,43.893
10321.273,20.650,44.134
10623.710,20.985,44.384
10935.008,21.323,44.637
11255.428,21.671,44.915
11585.238,22.029,45.159
11924.711,22.385,45.418
12274.132,22.760,45.694
12633.791,23.153,45.914
13003.989,23.520,46.163
13385.035,23.919,46.430
13777.247,24.323,46.680
14180.951,24.740,46.933
14596.485,25.171,47.164
15024.194,25.608,47.380
15464.437,26.054,47.592
15917.579,26.511,47.792
16384.000,26.975,47.985
16864.088,27.446,48.167
17358.243,27.907,48.344
17866.879,28.361,48.523
18390.418,28.804,48.693
18929.299,29.236,48.852
19483.969,29.649,49.015
20054.893,30.030,49.202
20642.546,30.354,49.433
